# Cooling Curve : CIE:[Fe/H] = -0.5
# Z = 0.316228
# log(T) ne      nH      nt      log(lambda net)
#
4 2.25516E-03 1.0000 1.0802 -24.9939
4.04999 1.41058E-02 1.0000 1.0802 -24.2511
4.09999 7.02681E-02 1.0000 1.0802 -23.1971
4.14999 0.25305 1.0000 1.0802 -22.3183
4.2 0.56738 1.0000 1.0802 -21.8143
4.25001 0.81627 1.0000 1.0802 -21.6696
4.30001 0.93171 1.0000 1.0802 -21.7064
4.35 0.97668 1.0000 1.0802 -21.7895
4.4 1.0009 1.0000 1.0802 -21.8612
4.45 1.0273 1.0000 1.0802 -21.8961
4.5 1.0538 1.0000 1.0802 -21.8939
4.55 1.0694 1.0000 1.0802 -21.8658
4.6 1.0759 1.0000 1.0802 -21.8185
4.65 1.0785 1.0000 1.0802 -21.7584
4.7 1.0800 1.0000 1.0802 -21.69
4.75 1.0823 1.0000 1.0802 -21.6153
4.8 1.0885 1.0000 1.0802 -21.5367
4.85 1.1029 1.0000 1.0802 -21.4566
4.9 1.1239 1.0000 1.0802 -21.3847
4.95 1.1416 1.0000 1.0802 -21.3259
5 1.1518 1.0000 1.0802 -21.2886
5.05 1.1567 1.0000 1.0802 -21.2672
5.1 1.1590 1.0000 1.0802 -21.2412
5.15 1.1601 1.0000 1.0802 -21.2058
5.2 1.1607 1.0000 1.0802 -21.172
5.25 1.1611 1.0000 1.0802 -21.149
5.3 1.1613 1.0000 1.0802 -21.1336
5.35 1.1616 1.0000 1.0802 -21.1254
5.4 1.1619 1.0000 1.0802 -21.1531
5.45 1.1623 1.0000 1.0802 -21.2729
5.5 1.1627 1.0000 1.0802 -21.4758
5.55 1.1629 1.0000 1.0802 -21.6645
5.6 1.1630 1.0000 1.0802 -21.7839
5.65 1.1630 1.0000 1.0802 -21.8396
5.7 1.1631 1.0000 1.0802 -21.8578
5.75 1.1632 1.0000 1.0802 -21.8736
5.8 1.1632 1.0000 1.0802 -21.9351
5.85 1.1633 1.0000 1.0802 -22.0499
5.9 1.1634 1.0000 1.0802 -22.1444
5.95 1.1635 1.0000 1.0802 -22.1897
6 1.1636 1.0000 1.0802 -22.2175
6.05 1.1636 1.0000 1.0802 -22.2373
6.1 1.1637 1.0000 1.0802 -22.2422
6.15 1.1638 1.0000 1.0802 -22.2391
6.2 1.1640 1.0000 1.0802 -22.241
6.25 1.1641 1.0000 1.0802 -22.2739
6.3 1.1642 1.0000 1.0802 -22.3613
6.35 1.1644 1.0000 1.0802 -22.4659
6.4 1.1645 1.0000 1.0802 -22.5521
6.45 1.1647 1.0000 1.0802 -22.614
6.5 1.1648 1.0000 1.0802 -22.6536
6.55 1.1649 1.0000 1.0802 -22.6782
6.6 1.1649 1.0000 1.0802 -22.6971
6.65 1.1650 1.0000 1.0802 -22.7156
6.7 1.1650 1.0000 1.0802 -22.7342
6.75 1.1651 1.0000 1.0802 -22.7508
6.8 1.1651 1.0000 1.0802 -22.7594
6.85 1.1651 1.0000 1.0802 -22.7574
6.9 1.1652 1.0000 1.0802 -22.7477
6.95 1.1652 1.0000 1.0802 -22.7371
7 1.1652 1.0000 1.0802 -22.7326
7.05 1.1652 1.0000 1.0802 -22.7376
7.1 1.1653 1.0000 1.0802 -22.7491
7.15 1.1653 1.0000 1.0802 -22.7606
7.2 1.1653 1.0000 1.0802 -22.7683
7.25 1.1653 1.0000 1.0802 -22.7709
7.3 1.1653 1.0000 1.0802 -22.7689
7.35 1.1653 1.0000 1.0802 -22.763
7.4 1.1653 1.0000 1.0802 -22.7541
7.45 1.1653 1.0000 1.0802 -22.7428
7.5 1.1653 1.0000 1.0802 -22.7297
7.55 1.1653 1.0000 1.0802 -22.7152
7.6 1.1653 1.0000 1.0802 -22.6993
7.65 1.1653 1.0000 1.0802 -22.6823
7.7 1.1653 1.0000 1.0802 -22.6643
7.75 1.1653 1.0000 1.0802 -22.6456
7.8 1.1653 1.0000 1.0802 -22.6262
7.85 1.1653 1.0000 1.0802 -22.6062
7.9 1.1653 1.0000 1.0802 -22.5858
7.95 1.1653 1.0000 1.0802 -22.565
8 1.1654 1.0000 1.0802 -22.5439
8.05 1.1654 1.0000 1.0802 -22.5226
8.1 1.1654 1.0000 1.0802 -22.501
8.15 1.1654 1.0000 1.0802 -22.4792
8.2 1.1654 1.0000 1.0802 -22.4573
8.25 1.1654 1.0000 1.0802 -22.4351
8.3 1.1654 1.0000 1.0802 -22.4127
8.35 1.1654 1.0000 1.0802 -22.3901
8.4 1.1654 1.0000 1.0802 -22.3674
8.45 1.1654 1.0000 1.0802 -22.3445
8.5 1.1654 1.0000 1.0802 -22.3214
